2-THETA,INTENSITY
3,4793
3.05,4820
3.1,4321
3.15,3662
3.2,4124
3.25,3470
3.3,3658
3.35,3485
3.4,2951
3.45,3228
3.5,2485
3.55,3216
3.6,2346
3.65,3207
3.7,2997
3.75,2161
3.8,2253
3.85,1857
3.9,2286
3.95,2483
4,1924
4.05,2146
4.1,1705
4.15,1873
4.2,1953
4.25,1605
4.3,1625
4.35,1500
4.4,1603
4.45,1535
4.5,1377
4.55,1591
4.6,1312
4.65,1293
4.7,1349
4.75,1187
4.8,1222
4.85,1141
4.9,1196
4.95,1193
5,1223
5.05,1130
5.1,1063
5.15,940
5.2,1133
5.25,971
5.3,976
5.35,976
5.4,919
5.45,921
5.5,863
5.55,985
5.6,817
5.65,953
5.7,857
5.75,891
5.8,860
5.85,864
5.9,864
5.95,709
6,817
6.05,801
6.1,766
6.15,727
6.2,787
6.25,783
6.3,729
6.35,756
6.4,665
6.45,640
6.5,686
6.55,739
6.6,687
6.65,681
6.7,665
6.75,689
6.8,652
6.85,691
6.9,706
6.95,580
7,632
7.05,603
7.1,627
7.15,565
7.2,645
7.25,629
7.3,611
7.35,538
7.4,565
7.45,617
7.5,565
7.55,604
7.6,569
7.65,624
7.7,573
7.75,548
7.8,559
7.85,620
7.9,547
7.95,558
8,561
8.05,564
8.1,568
8.15,547
8.2,540
8.25,559
8.3,529
8.35,583
8.4,571
8.45,481
8.5,557
8.55,473
8.6,533
8.65,542
8.7,551
8.75,507
8.8,529
8.85,533
8.9,527
8.95,574
9,535
9.05,516
9.1,562
9.15,537
9.2,531
9.25,546
9.3,518
9.35,532
9.4,535
9.45,512
9.5,526
9.55,543
9.6,522
9.65,624
9.7,579
9.75,589
9.8,569
9.85,586
9.9,572
9.95,580
10,545
10.05,593
10.1,620
10.15,566
10.2,571
10.25,554
10.3,589
10.35,535
10.4,517
10.45,561
10.5,558
10.55,527
10.6,514
10.65,504
10.7,467
10.75,466
10.8,536
10.85,430
10.9,473
10.95,432
11,449
11.05,457
11.1,433
11.15,403
11.2,394
11.25,450
11.3,398
11.35,390
11.4,385
11.45,395
11.5,361
11.55,402
11.6,362
11.65,402
11.7,391
11.75,359
11.8,379
11.85,373
11.9,383
11.95,362
12,369
12.05,370
12.1,378
12.15,359
12.2,387
12.25,344
12.3,389
12.35,366
12.4,385
12.45,386
12.5,354
12.55,328
12.6,373
12.65,352
12.7,334
12.75,371
12.8,391
12.85,379
12.9,409
12.95,382
13,421
13.05,358
13.1,365
13.15,381
13.2,375
13.25,363
13.3,374
13.35,379
13.4,362
13.45,377
13.5,392
13.55,382
13.6,384
13.65,367
13.7,385
13.75,361
13.8,389
13.85,369
13.9,339
13.95,385
14,373
14.05,361
14.1,381
14.15,384
14.2,368
14.25,360
14.3,364
14.35,368
14.4,394
14.45,389
14.5,395
14.55,395
14.6,384
14.65,387
14.7,359
14.75,382
14.8,393
14.85,375
14.9,389
14.95,385
15,388
15.05,397
15.1,366
15.15,391
15.2,363
15.25,365
15.3,352
15.35,393
15.4,384
15.45,392
15.5,388
15.55,396
15.6,406
15.65,378
15.7,372
15.75,407
15.8,409
15.85,441
15.9,441
15.95,529
16,502
16.05,508
16.1,468
16.15,447
16.2,479
16.25,453
16.3,410
16.35,407
16.4,428
16.45,397
16.5,414
16.55,384
16.6,363
16.65,396
16.7,448
16.75,455
16.8,409
16.85,467
16.9,482
16.95,537
17,600
17.05,643
17.1,666
17.15,688
17.2,568
17.25,567
17.3,488
17.35,530
17.4,469
17.45,489
17.5,446
17.55,437
17.6,481
17.65,491
17.7,446
17.75,518
17.8,451
17.85,483
17.9,443
17.95,423
18,429
18.05,426
18.1,454
18.15,439
18.2,462
18.25,488
18.3,491
18.35,474
18.4,462
18.45,487
18.5,466
18.55,478
18.6,461
18.65,464
18.7,444
18.75,485
18.8,449
18.85,473
18.9,484
18.95,465
19,464
19.05,463
19.1,436
19.15,495
19.2,457
19.25,468
19.3,439
19.35,438
19.4,465
19.45,446
19.5,457
19.55,439
19.6,464
19.65,457
19.7,481
19.75,470
19.8,438
19.85,468
19.9,471
19.95,469
20,469
20.05,467
20.1,471
20.15,436
20.2,463
20.25,447
20.3,457
20.35,452
20.4,482
20.45,488
20.5,446
20.55,470
20.6,475
20.65,486
20.7,490
20.75,474
20.8,475
20.85,480
20.9,483
20.95,468
21,471
21.05,463
21.1,484
21.15,478
21.2,485
21.25,507
21.3,459
21.35,478
21.4,498
21.45,475
21.5,483
21.55,473
21.6,471
21.65,510
21.7,465
21.75,498
21.8,462
21.85,525
21.9,499
21.95,536
22,532
22.05,545
22.1,560
22.15,535
22.2,550
22.25,526
22.3,541
22.35,543
22.4,560
22.45,556
22.5,582
22.55,591
22.6,595
22.65,612
22.7,630
22.75,613
22.8,663
22.85,681
22.9,684
22.95,664
23,673
23.05,673
23.1,703
23.15,687
23.2,664
23.25,689
23.3,648
23.35,660
23.4,670
23.45,659
23.5,624
23.55,654
23.6,616
23.65,639
23.7,593
23.75,629
23.8,628
23.85,622
23.9,619
23.95,669
24,676
24.05,671
24.1,684
24.15,643
24.2,659
24.25,666
24.3,669
24.35,670
24.4,691
24.45,634
24.5,669
24.55,614
24.6,650
24.65,615
24.7,668
24.75,595
24.8,626
24.85,626
24.9,668
24.95,684
25,632
25.05,646
25.1,645
25.15,684
25.2,656
25.25,695
25.3,725
25.35,777
25.4,893
25.45,1020
25.5,1285
25.55,1427
25.6,1490
25.65,1433
25.7,1477
25.75,1198
25.8,1047
25.85,808
25.9,679
25.95,638
26,566
26.05,579
26.1,572
26.15,611
26.2,607
26.25,631
26.3,582
26.35,592
26.4,626
26.45,640
26.5,641
26.55,703
26.6,720
26.65,725
26.7,691
26.75,690
26.8,685
26.85,631
26.9,636
26.95,632
27,607
27.05,605
27.1,659
27.15,644
27.2,622
27.25,617
27.3,673
27.35,682
27.4,795
27.45,893
27.5,969
27.55,1103
27.6,1183
27.65,1195
27.7,1111
27.75,1010
27.8,905
27.85,866
27.9,776
27.95,724
28,737
28.05,730
28.1,702
28.15,717
28.2,738
28.25,784
28.3,828
28.35,880
28.4,929
28.45,906
28.5,870
28.55,892
28.6,844
28.65,807
28.7,748
28.75,669
28.8,646
28.85,608
28.9,598
28.95,621
29,645
29.05,633
29.1,672
29.15,688
29.2,699
29.25,730
29.3,716
29.35,734
29.4,732
29.45,775
29.5,790
29.55,818
29.6,863
29.65,846
29.7,877
29.75,859
29.8,869
29.85,886
29.9,852
29.95,792
30,776
30.05,741
30.1,690
30.15,654
30.2,664
30.25,641
30.3,641
30.35,601
30.4,591
30.45,619
30.5,583
30.55,584
30.6,601
30.65,656
30.7,685
30.75,697
30.8,708
30.85,765
30.9,807
30.95,815
31,819
31.05,816
31.1,821
31.15,824
31.2,813
31.25,780
31.3,756
31.35,748
31.4,733
31.45,721
31.5,685
31.55,661
31.6,654
31.65,627
31.7,642
31.75,657
31.8,653
31.85,699
31.9,721
31.95,733
32,792
32.05,904
32.1,1046
32.15,1212
32.2,1415
32.25,1723
32.3,1871
32.35,2213
32.4,2182
32.45,2292
32.5,2119
32.55,2164
32.6,2031
32.65,1853
32.7,1698
32.75,1479
32.8,1302
32.85,1181
32.9,978
32.95,890
33,833
33.05,806
33.1,892
33.15,878
33.2,831
33.25,852
33.3,764
33.35,703
33.4,654
33.45,581
33.5,555
33.55,557
33.6,526
33.65,546
33.7,539
33.75,570
33.8,542
33.85,553
33.9,542
33.95,554
34,563
34.05,531
34.1,532
34.15,515
34.2,529
34.25,584
34.3,572
34.35,660
34.4,677
34.45,812
34.5,855
34.55,905
34.6,947
34.65,961
34.7,938
34.75,877
34.8,796
34.85,776
34.9,751
34.95,685
35,652
35.05,618
35.1,628
35.15,656
35.2,677
35.25,750
35.3,750
35.35,816
35.4,850
35.45,836
35.5,836
35.55,804
35.6,779
35.65,756
35.7,764
35.75,699
35.8,676
35.85,699
35.9,691
35.95,678
36,662
36.05,674
36.1,667
36.15,648
36.2,635
36.25,604
36.3,581
36.35,549
36.4,529
36.45,582
36.5,557
36.55,610
36.6,646
36.65,680
36.7,685
36.75,672
36.8,697
36.85,676
36.9,698
36.95,754
37,724
37.05,702
37.1,774
37.15,709
37.2,694
37.25,722
37.3,651
37.35,696
37.4,649
37.45,655
37.5,724
37.55,707
37.6,620
37.65,630
37.7,579
37.75,571
37.8,587
37.85,603
37.9,571
37.95,598
38,590
38.05,591
38.1,598
38.15,614
38.2,611
38.25,631
38.3,668
38.35,706
38.4,681
38.45,690
38.5,716
38.55,724
38.6,739
38.65,752
38.7,771
38.75,752
38.8,758
38.85,723
38.9,738
38.95,669
39,679
39.05,658
39.1,667
39.15,623
39.2,627
39.25,600
39.3,636
39.35,625
39.4,653
39.45,639
39.5,624
39.55,610
39.6,586
39.65,561
39.7,513
39.75,532
39.8,537
39.85,501
39.9,502
39.95,515
40,512
40.05,484
40.1,510
40.15,532
40.2,507
40.25,540
40.3,504
40.35,542
40.4,545
40.45,551
40.5,566
40.55,590
40.6,612
40.65,606
40.7,619
40.75,622
40.8,660
40.85,660
40.9,673
40.95,625
41,637
41.05,633
41.1,697
41.15,658
41.2,712
41.25,740
41.3,761
41.35,788
41.4,887
41.45,940
41.5,1056
41.55,1128
41.6,1181
41.65,1157
41.7,1169
41.75,1148
41.8,1066
41.85,1026
41.9,962
41.95,907
42,794
42.05,760
42.1,730
42.15,732
42.2,700
42.25,648
42.3,637
42.35,647
42.4,660
42.45,634
42.5,611
42.55,570
42.6,582
42.65,598
42.7,561
42.75,592
42.8,558
42.85,563
42.9,580
42.95,559
43,536
43.05,543
43.1,555
43.15,529
43.2,497
43.25,521
43.3,520
43.35,512
43.4,538
43.45,532
43.5,514
43.55,558
43.6,533
43.65,501
43.7,548
43.75,522
43.8,542
43.85,506
43.9,474
43.95,493
44,469
44.05,506
44.1,508
44.15,520
44.2,531
44.25,537
44.3,496
44.35,488
44.4,511
44.45,506
44.5,472
44.55,472
44.6,466
44.65,485
44.7,480
44.75,480
44.8,480
44.85,471
44.9,484
44.95,469
45,483
45.05,501
45.1,497
45.15,483
45.2,492
45.25,530
45.3,487
45.35,487
45.4,511
45.45,525
45.5,472
45.55,511
45.6,489
45.65,498
45.7,497
45.75,512
45.8,516
45.85,546
45.9,542
45.95,540
46,538
46.05,536
46.1,533
46.15,535
46.2,543
46.25,513
46.3,514
46.35,496
46.4,500
46.45,491
46.5,522
46.55,481
46.6,503
46.65,466
46.7,471
46.75,465
46.8,454
46.85,495
46.9,462
46.95,468
47,474
47.05,504
47.1,492
47.15,522
47.2,524
47.25,508
47.3,510
47.35,519
47.4,542
47.45,552
47.5,546
47.55,589
47.6,596
47.65,602
47.7,612
47.75,614
47.8,582
47.85,597
47.9,627
47.95,599
48,601
48.05,577
48.1,598
48.15,613
48.2,601
48.25,586
48.3,556
48.35,560
48.4,560
48.45,542
48.5,550
48.55,535
48.6,537
48.65,504
48.7,513
48.75,473
48.8,501
48.85,491
48.9,501
48.95,531
49,538
49.05,506
49.1,535
49.15,498
49.2,503
49.25,535
49.3,532
49.35,552
49.4,588
49.45,612
49.5,613
49.55,609
49.6,593
49.65,585
49.7,587
49.75,573
49.8,528
49.85,620
49.9,579
49.95,629
50,504
50.05,603
50.1,607
50.15,541
50.2,531
50.25,499
50.3,543
50.35,486
50.4,543
50.45,557
50.5,543
50.55,530
50.6,553
50.65,499
50.7,518
50.75,522
50.8,542
50.85,520
50.9,526
50.95,473
51,502
51.05,504
51.1,492
51.15,493
51.2,492
51.25,499
51.3,528
51.35,502
51.4,525
51.45,516
51.5,499
51.55,521
51.6,502
51.65,527
51.7,537
51.75,510
51.8,503
51.85,476
51.9,499
51.95,511
52,501
